wavelength (nm), n, k
2.40000000e2, 1.57190000, 3.27060000
2.42000000e2, 1.57620000, 3.30360000
2.44000000e2, 1.60060000, 3.35070000
2.46000000e2, 1.61600000, 3.39270000
2.48000000e2, 1.63490000, 3.46290000
2.50000000e2, 1.65500000, 3.51020000
2.52000000e2, 1.67520000, 3.57190000
2.54000000e2, 1.70980000, 3.63780000
2.56000000e2, 1.73690000, 3.70540000
2.58000000e2, 1.76860000, 3.77680000
2.60000000e2, 1.80320000, 3.84830000
2.62000000e2, 1.85570000, 3.93380000
2.64000000e2, 1.91460000, 4.01130000
2.66000000e2, 1.96830000, 4.10560000
2.68000000e2, 2.02980000, 4.18780000
2.70000000e2, 2.12780000, 4.28950000
2.72000000e2, 2.21430000, 4.38500000
2.74000000e2, 2.32330000, 4.48560000
2.76000000e2, 2.44100000, 4.58530000
2.78000000e2, 2.59790000, 4.67120000
2.80000000e2, 2.77760000, 4.76250000
2.82000000e2, 2.98760000, 4.83190000
2.84000000e2, 3.20340000, 4.87000000
2.86000000e2, 3.46620000, 4.86220000
2.88000000e2, 3.69720000, 4.79160000
2.90000000e2, 3.91630000, 4.68360000
2.92000000e2, 4.09250000, 4.54160000
2.94000000e2, 4.23230000, 4.38140000
2.96000000e2, 4.33360000, 4.22820000
2.98000000e2, 4.39840000, 4.08620000
3.00000000e2, 4.44280000, 3.95390000
3.02000000e2, 4.47972400, 3.83301900
3.04000000e2, 4.50300000, 3.72700000
3.06000000e2, 4.51632500, 3.63398100
3.08000000e2, 4.52340000, 3.55210000
3.10000000e2, 4.52860600, 3.47953700
3.12000000e2, 4.53360000, 3.41430000
3.14000000e2, 4.54246900, 3.35363700
3.16000000e2, 4.55230000, 3.29800000
3.18000000e2, 4.56141200, 3.24670100
3.20000000e2, 4.57020000, 3.20040000
3.22000000e2, 4.57813700, 3.16081200
3.24000000e2, 4.58630000, 3.12410000
3.26000000e2, 4.59568100, 3.08630600
3.28000000e2, 4.60600000, 3.04950000
3.30000000e2, 4.61781300, 3.01391900
3.32000000e2, 4.62960000, 2.98110000
3.34000000e2, 4.63968100, 2.95340600
3.36000000e2, 4.64910000, 2.92860000
3.38000000e2, 4.65726200, 2.90591900
3.40000000e2, 4.66740000, 2.88330000
3.42000000e2, 4.68465000, 2.85658100
3.44000000e2, 4.70270000, 2.83130000
3.46000000e2, 4.71518100, 2.81321900
3.48000000e2, 4.72740000, 2.79750000
3.50000000e2, 4.74250000, 2.78116200
3.52000000e2, 4.76060000, 2.76440000
3.54000000e2, 4.78418700, 2.74534400
3.56000000e2, 4.80930000, 2.72720000
3.58000000e2, 4.83162500, 2.71390600
3.60000000e2, 4.85470000, 2.70140000
3.62000000e2, 4.88082500, 2.68656300
3.64000000e2, 4.90940000, 2.67050000
3.66000000e2, 4.94090600, 2.65340000
3.68000000e2, 4.97440000, 2.63490000
3.70000000e2, 5.00930000, 2.61467500
3.72000000e2, 5.04500000, 2.59280000
3.74000000e2, 5.08053200, 2.56933100
3.76000000e2, 5.11640000, 2.54400000
3.78000000e2, 5.15255000, 2.51695600
3.80000000e2, 5.18970000, 2.48700000
3.82000000e2, 5.22966900, 2.45161200
3.84000000e2, 5.26910000, 2.41490000
3.86000000e2, 5.30463700, 2.38100000
3.88000000e2, 5.33810000, 2.34730000
3.90000000e2, 5.36958700, 2.31285600
3.92000000e2, 5.40090000, 2.27680000
3.94000000e2, 5.43399300, 2.23765600
3.96000000e2, 5.46850000, 2.19630000
3.98000000e2, 5.50498800, 2.15381200
4.00000000e2, 5.54260000, 2.10810000
4.02000000e2, 5.58119300, 2.05674400
4.04000000e2, 5.61920000, 2.00180000
4.06000000e2, 5.65493100, 1.94505700
4.08000000e2, 5.68860000, 1.88490000
4.10000000e2, 5.72014400, 1.81991900
4.12000000e2, 5.74870000, 1.75130000
4.14000000e2, 5.77381800, 1.67916300
4.16000000e2, 5.79420000, 1.60530000
4.18000000e2, 5.80875600, 1.53108700
4.20000000e2, 5.81640000, 1.45790000
4.22000000e2, 5.81962200, 1.37221900
4.24000000e2, 5.81684900, 1.29034600
4.26000000e2, 5.80853500, 1.21226300
4.28000000e2, 5.79513500, 1.13795300
4.30000000e2, 5.77710000, 1.06740000
4.32000000e2, 5.75488600, 1.00058700
4.34000000e2, 5.72894500, 9.37498000e-1
4.36000000e2, 5.69973100, 8.78115000e-1
4.38000000e2, 5.66769800, 8.22421000e-1
4.40000000e2, 5.63330000, 7.70400000e-1
4.42000000e2, 5.59677500, 7.22538000e-1
4.44000000e2, 5.55884500, 6.78189000e-1
4.46000000e2, 5.52001800, 6.37211000e-1
4.48000000e2, 5.48080000, 5.99462000e-1
4.50000000e2, 5.44170000, 5.64800000e-1
4.52000000e2, 5.40486100, 5.33411000e-1
4.54000000e2, 5.36874500, 5.04742000e-1
4.56000000e2, 5.33344700, 4.78566000e-1
4.58000000e2, 5.29906600, 4.54661000e-1
4.60000000e2, 5.26570000, 4.32800000e-1
4.62000000e2, 5.23415600, 4.12519000e-1
4.64000000e2, 5.20364400, 3.93894000e-1
4.66000000e2, 5.17408400, 3.76759000e-1
4.68000000e2, 5.14539600, 3.60949000e-1
4.70000000e2, 5.11750000, 3.46300000e-1
4.72000000e2, 5.08978500, 3.32404000e-1
4.74000000e2, 5.06283400, 3.19400000e-1
4.76000000e2, 5.03670100, 3.07184000e-1
4.78000000e2, 5.01143900, 2.95652000e-1
4.80000000e2, 4.98710000, 2.84700000e-1
4.82000000e2, 4.96425500, 2.73843000e-1
4.84000000e2, 4.94231000, 2.63454000e-1
4.86000000e2, 4.92118700, 2.53522000e-1
4.88000000e2, 4.90080900, 2.44041000e-1
4.90000000e2, 4.88110000, 2.35000000e-1
4.92000000e2, 4.86202500, 2.26446000e-1
4.94000000e2, 4.84345500, 2.18301000e-1
4.96000000e2, 4.82530200, 2.10543000e-1
4.98000000e2, 4.80747900, 2.03150000e-1
5.00000000e2, 4.78990000, 1.96100000e-1
5.02000000e2, 4.77192600, 1.89175000e-1
5.04000000e2, 4.75415900, 1.82595000e-1
5.06000000e2, 4.73664900, 1.76389000e-1
5.08000000e2, 4.71944500, 1.70582000e-1
5.10000000e2, 4.70260000, 1.65200000e-1
5.12000000e2, 4.68615900, 1.60722000e-1
5.14000000e2, 4.67017700, 1.56609000e-1
5.16000000e2, 4.65470600, 1.52775000e-1
5.18000000e2, 4.63979700, 1.49134000e-1
5.20000000e2, 4.62550000, 1.45600000e-1
5.22000000e2, 4.61268600, 1.41554000e-1
5.24000000e2, 4.60038300, 1.37575000e-1
5.26000000e2, 4.58843700, 1.33709000e-1
5.28000000e2, 4.57669400, 1.30002000e-1
5.30000000e2, 4.56500000, 1.26500000e-1
5.32000000e2, 4.55216600, 1.23644000e-1
5.34000000e2, 4.53933300, 1.20988000e-1
5.36000000e2, 4.52660800, 1.18480000e-1
5.38000000e2, 4.51409500, 1.16068000e-1
5.40000000e2, 4.50190000, 1.13700000e-1
5.42000000e2, 4.49078900, 1.11039000e-1
5.44000000e2, 4.48004200, 1.08390000e-1
5.46000000e2, 4.46960200, 1.05770000e-1
5.48000000e2, 4.45940700, 1.03201000e-1
5.50000000e2, 4.44940000, 1.00700000e-1
5.52000000e2, 4.43912700, 9.83960000e-2
5.54000000e2, 4.42902200, 9.61720000e-2
5.56000000e2, 4.41912300, 9.40200000e-2
5.58000000e2, 4.40946900, 9.19320000e-2
5.60000000e2, 4.40010000, 8.99000000e-2
5.62000000e2, 4.39154200, 8.79030000e-2
5.64000000e2, 4.38322500, 8.59500000e-2
5.66000000e2, 4.37506700, 8.40340000e-2
5.68000000e2, 4.36698600, 8.21530000e-2
5.70000000e2, 4.35890000, 8.03000000e-2
5.72000000e2, 4.35017500, 7.83780000e-2
5.74000000e2, 4.34141700, 7.64990000e-2
5.76000000e2, 4.33268200, 7.46810000e-2
5.78000000e2, 4.32402400, 7.29420000e-2
5.80000000e2, 4.31550000, 7.13000000e-2
5.82000000e2, 4.30727500, 6.99570000e-2
5.84000000e2, 4.29926500, 6.87020000e-2
5.86000000e2, 4.29149800, 6.75100000e-2
5.88000000e2, 4.28400100, 6.63510000e-2
5.90000000e2, 4.27680000, 6.52000000e-2
5.92000000e2, 4.27033600, 6.38820000e-2
5.94000000e2, 4.26412000, 6.25530000e-2
5.96000000e2, 4.25807600, 6.12230000e-2
5.98000000e2, 4.25212800, 5.99020000e-2
6.00000000e2, 4.24620000, 5.86000000e-2
6.02000000e2, 4.23990200, 5.74020000e-2
6.04000000e2, 4.23355200, 5.62230000e-2
6.06000000e2, 4.22714900, 5.50530000e-2
6.08000000e2, 4.22069800, 5.38820000e-2
6.10000000e2, 4.21420000, 5.27000000e-2
6.12000000e2, 4.20749500, 5.12810000e-2
6.14000000e2, 4.20078900, 4.98860000e-2
6.16000000e2, 4.19412700, 4.85620000e-2
6.18000000e2, 4.18754900, 4.73510000e-2
6.20000000e2, 4.18110000, 4.63000000e-2
6.22000000e2, 4.17499900, 4.57540000e-2
6.24000000e2, 4.16906900, 4.53810000e-2
6.26000000e2, 4.16331100, 4.51510000e-2
6.28000000e2, 4.15772100, 4.50340000e-2
6.30000000e2, 4.15230000, 4.50000000e-2
6.32000000e2, 4.14708200, 4.49980000e-2
6.34000000e2, 4.14202300, 4.50230000e-2
6.36000000e2, 4.13711300, 4.50490000e-2
6.38000000e2, 4.13234100, 4.50500000e-2
6.40000000e2, 4.12770000, 4.50000000e-2
6.42000000e2, 4.12315300, 4.46660000e-2
6.44000000e2, 4.11872200, 4.42830000e-2
6.46000000e2, 4.11440600, 4.38770000e-2
6.48000000e2, 4.11019900, 4.34740000e-2
6.50000000e2, 4.10610000, 4.31000000e-2
6.52000000e2, 4.10213000, 4.30060000e-2
6.54000000e2, 4.09825500, 4.29390000e-2
6.56000000e2, 4.09446500, 4.28690000e-2
6.58000000e2, 4.09075000, 4.27660000e-2
6.60000000e2, 4.08710000, 4.26000000e-2
6.62000000e2, 4.08349400, 4.21760000e-2
6.64000000e2, 4.07993700, 4.16720000e-2
6.66000000e2, 4.07642300, 4.11000000e-2
6.68000000e2, 4.07294700, 4.04720000e-2
6.70000000e2, 4.06950000, 3.98000000e-2
6.72000000e2, 4.06603300, 3.91280000e-2
6.74000000e2, 4.06259400, 3.84280000e-2
6.76000000e2, 4.05918900, 3.77040000e-2
6.78000000e2, 4.05582300, 3.69600000e-2
6.80000000e2, 4.05250000, 3.62000000e-2
6.82000000e2, 4.04945500, 3.54340000e-2
6.84000000e2, 4.04640500, 3.46590000e-2
6.86000000e2, 4.04329800, 3.38770000e-2
6.88000000e2, 4.04008100, 3.30900000e-2
6.90000000e2, 4.03670000, 3.23000000e-2
6.92000000e2, 4.03248900, 3.14850000e-2
6.94000000e2, 4.02816200, 3.06780000e-2
6.96000000e2, 4.02382100, 2.98900000e-2
6.98000000e2, 4.01956700, 2.91270000e-2
7.00000000e2, 4.01550000, 2.84000000e-2
7.02000000e2, 4.01244400, 2.78060000e-2
7.04000000e2, 4.00959600, 2.72430000e-2
7.06000000e2, 4.00687600, 2.66970000e-2
7.08000000e2, 4.00420400, 2.61540000e-2
7.10000000e2, 4.00150000, 2.56000000e-2
7.12000000e2, 3.99826800, 2.48500000e-2
7.14000000e2, 3.99494800, 2.41050000e-2
7.16000000e2, 3.99156400, 2.33950000e-2
7.18000000e2, 3.98814000, 2.27500000e-2
7.20000000e2, 3.98470000, 2.22000000e-2
7.22000000e2, 3.98131000, 2.20070000e-2
7.24000000e2, 3.97794100, 2.19100000e-2
7.26000000e2, 3.97460700, 2.18780000e-2
7.28000000e2, 3.97132300, 2.18850000e-2
7.30000000e2, 3.96810000, 2.19000000e-2
7.32000000e2, 3.96488600, 2.17700000e-2
7.34000000e2, 3.96177900, 2.16230000e-2
7.36000000e2, 3.95880900, 2.14610000e-2
7.38000000e2, 3.95600600, 2.12860000e-2
7.40000000e2, 3.95340000, 2.11000000e-2
7.42000000e2, 3.95136500, 2.09030000e-2
7.44000000e2, 3.94950200, 2.07020000e-2
7.46000000e2, 3.94775800, 2.04980000e-2
7.48000000e2, 3.94607500, 2.02970000e-2
7.50000000e2, 3.94440000, 2.01000000e-2
7.52000000e2, 3.94249400, 2.00010000e-2
7.54000000e2, 3.94053100, 1.98900000e-2
7.56000000e2, 3.93850100, 1.97500000e-2
7.58000000e2, 3.93639300, 1.95590000e-2
7.60000000e2, 3.93420000, 1.93000000e-2
7.62000000e2, 3.93180200, 1.87350000e-2
7.64000000e2, 3.92932500, 1.81180000e-2
7.66000000e2, 3.92678700, 1.74820000e-2
7.68000000e2, 3.92420600, 1.68650000e-2
7.70000000e2, 3.92160000, 1.63000000e-2
7.72000000e2, 3.91893400, 1.59930000e-2
7.74000000e2, 3.91629100, 1.57660000e-2
7.76000000e2, 3.91370100, 1.56140000e-2
7.78000000e2, 3.91119400, 1.55270000e-2
7.80000000e2, 3.90880000, 1.55000000e-2
7.82000000e2, 3.90681000, 1.56180000e-2
7.84000000e2, 3.90492900, 1.57570000e-2
7.86000000e2, 3.90312300, 1.58870000e-2
7.88000000e2, 3.90135900, 1.59780000e-2
7.90000000e2, 3.89960000, 1.60000000e-2
7.92000000e2, 3.89743600, 1.56370000e-2
7.94000000e2, 3.89530400, 1.52140000e-2
7.96000000e2, 3.89326400, 1.47740000e-2
7.98000000e2, 3.89137600, 1.43550000e-2
8.00000000e2, 3.88970000, 1.40000000e-2
8.02000000e2, 3.88922400, 1.39280000e-2
8.04000000e2, 3.88884800, 1.39560000e-2
8.06000000e2, 3.88840000, 1.40800000e-2
8.08000000e2, 3.88770800, 1.42960000e-2
8.10000000e2, 3.88660000, 1.46000000e-2
8.12000000e2, 3.88331000, 1.51770000e-2
8.14000000e2, 3.87965900, 1.57860000e-2
8.16000000e2, 3.87587300, 1.63780000e-2
8.18000000e2, 3.87217700, 1.68990000e-2
8.20000000e2, 3.86880000, 1.73000000e-2
8.22000000e2, 3.86782900, 1.72090000e-2
8.24000000e2, 3.86716200, 1.69740000e-2
8.26000000e2, 3.86656200, 1.66260000e-2
8.28000000e2, 3.86578700, 1.61910000e-2
8.30000000e2, 3.86460000, 1.57000000e-2
8.32000000e2, 3.86276100, 1.51810000e-2
8.34000000e2, 3.86003000, 1.46620000e-2
8.36000000e2, 3.85617000, 1.41740000e-2
8.38000000e2, 3.85093900, 1.37430000e-2
8.40000000e2, 3.84410000, 1.34000000e-2
