wavelength (nm), n, k
2.40000000e2, 1.61970000, 3.40380000
2.42000000e2, 1.61870000, 3.43440000
2.44000000e2, 1.64080000, 3.46420000
2.46000000e2, 1.63480000, 3.53840000
2.48000000e2, 1.64320000, 3.59620000
2.50000000e2, 1.66780000, 3.65030000
2.52000000e2, 1.68660000, 3.72690000
2.54000000e2, 1.71130000, 3.81570000
2.56000000e2, 1.72320000, 3.88360000
2.58000000e2, 1.75830000, 3.97970000
2.60000000e2, 1.79640000, 4.07750000
2.62000000e2, 1.84300000, 4.18730000
2.64000000e2, 1.88580000, 4.29970000
2.66000000e2, 1.97050000, 4.42300000
2.68000000e2, 2.06030000, 4.55140000
2.70000000e2, 2.16460000, 4.67570000
2.72000000e2, 2.29880000, 4.80820000
2.74000000e2, 2.46990000, 4.93500000
2.76000000e2, 2.65180000, 5.04000000
2.78000000e2, 2.84860000, 5.12570000
2.80000000e2, 3.07560000, 5.19580000
2.82000000e2, 3.30790000, 5.23420000
2.84000000e2, 3.55930000, 5.25100000
2.86000000e2, 3.81540000, 5.23440000
2.88000000e2, 4.10560000, 5.17730000
2.90000000e2, 4.36170000, 5.05880000
2.92000000e2, 4.59340000, 4.89020000
2.94000000e2, 4.75440000, 4.69430000
2.96000000e2, 4.87980000, 4.48630000
2.98000000e2, 4.94950000, 4.29480000
3.00000000e2, 4.98700000, 4.12680000
3.02000000e2, 5.01789300, 3.97493800
3.04000000e2, 5.03200000, 3.84650000
3.06000000e2, 5.03470600, 3.73761200
3.08000000e2, 5.03140000, 3.64440000
3.10000000e2, 5.02919400, 3.56186900
3.12000000e2, 5.02830000, 3.48950000
3.14000000e2, 5.03203700, 3.42565000
3.16000000e2, 5.03820000, 3.36870000
3.18000000e2, 5.04510000, 3.31626900
3.20000000e2, 5.05450000, 3.26900000
3.22000000e2, 5.06836900, 3.22756900
3.24000000e2, 5.08440000, 3.18950000
3.26000000e2, 5.10086900, 3.15177500
3.28000000e2, 5.11800000, 3.11670000
3.30000000e2, 5.13441900, 3.08629300
3.32000000e2, 5.15320000, 3.05840000
3.34000000e2, 5.17845600, 3.03012500
3.36000000e2, 5.20570000, 3.00570000
3.38000000e2, 5.22933800, 2.99042500
3.40000000e2, 5.25680000, 2.97820000
3.42000000e2, 5.29520600, 2.96390000
3.44000000e2, 5.33990000, 2.94990000
3.46000000e2, 5.38700000, 2.93825600
3.48000000e2, 5.44130000, 2.92480000
3.50000000e2, 5.50733700, 2.90572500
3.52000000e2, 5.58200000, 2.88200000
3.54000000e2, 5.66445000, 2.85311200
3.56000000e2, 5.75240000, 2.81970000
3.58000000e2, 5.84121200, 2.78457500
3.60000000e2, 5.93710000, 2.74070000
3.62000000e2, 6.04645600, 2.68406900
3.64000000e2, 6.16410000, 2.60840000
3.66000000e2, 6.29086300, 2.50686200
3.68000000e2, 6.41510000, 2.37710000
3.70000000e2, 6.53053100, 2.21090000
3.72000000e2, 6.62190000, 2.01900000
3.74000000e2, 6.67083100, 1.80383000
3.76000000e2, 6.68040000, 1.58210000
3.78000000e2, 6.64233100, 1.36879300
3.80000000e2, 6.57230000, 1.17150000
3.82000000e2, 6.47888800, 1.00395000
3.84000000e2, 6.37510000, 8.62700000e-1
3.86000000e2, 6.27923700, 7.51844000e-1
3.88000000e2, 6.18400000, 6.62500000e-1
3.90000000e2, 6.08625700, 5.87694000e-1
3.92000000e2, 5.99180000, 5.25800000e-1
3.94000000e2, 5.90672400, 4.73156000e-1
3.96000000e2, 5.82700000, 4.28900000e-1
3.98000000e2, 5.75035600, 3.91263000e-1
4.00000000e2, 5.67760000, 3.59300000e-1
4.02000000e2, 5.60875600, 3.31756000e-1
4.04000000e2, 5.54390000, 3.07800000e-1
4.06000000e2, 5.48316300, 2.86163000e-1
4.08000000e2, 5.42640000, 2.66900000e-1
4.10000000e2, 5.37363700, 2.49725000e-1
4.12000000e2, 5.32450000, 2.34400000e-1
4.14000000e2, 5.27915600, 2.20625000e-1
4.16000000e2, 5.23600000, 2.08300000e-1
4.18000000e2, 5.19386900, 1.97275000e-1
4.20000000e2, 5.15160000, 1.87400000e-1
4.22000000e2, 5.10710100, 1.78130000e-1
4.24000000e2, 5.06650100, 1.69479000e-1
4.26000000e2, 5.02939900, 1.61413000e-1
4.28000000e2, 4.99539900, 1.53898000e-1
4.30000000e2, 4.96410000, 1.46900000e-1
4.32000000e2, 4.93510500, 1.40386000e-1
4.34000000e2, 4.90801700, 1.34323000e-1
4.36000000e2, 4.88243500, 1.28677000e-1
4.38000000e2, 4.85796300, 1.23414000e-1
4.40000000e2, 4.83420000, 1.18500000e-1
4.42000000e2, 4.80874000, 1.13848000e-1
4.44000000e2, 4.78369600, 1.09492000e-1
4.46000000e2, 4.75917200, 1.05412000e-1
4.48000000e2, 4.73527200, 1.01588000e-1
4.50000000e2, 4.71210000, 9.80000000e-2
4.52000000e2, 4.69044400, 9.46380000e-2
4.54000000e2, 4.66955400, 9.14690000e-2
4.56000000e2, 4.64936200, 8.84710000e-2
4.58000000e2, 4.62979900, 8.56220000e-2
4.60000000e2, 4.61080000, 8.29000000e-2
4.62000000e2, 4.59212100, 8.00800000e-2
4.64000000e2, 4.57391500, 7.73920000e-2
4.66000000e2, 4.55615800, 7.48640000e-2
4.68000000e2, 4.53882700, 7.25240000e-2
4.70000000e2, 4.52190000, 7.04000000e-2
4.72000000e2, 4.50531800, 6.88370000e-2
4.74000000e2, 4.48910100, 6.74660000e-2
4.76000000e2, 4.47323500, 6.62380000e-2
4.78000000e2, 4.45770600, 6.50990000e-2
4.80000000e2, 4.44250000, 6.40000000e-2
4.82000000e2, 4.42721100, 6.27160000e-2
4.84000000e2, 4.41231400, 6.14120000e-2
4.86000000e2, 4.39789100, 6.00800000e-2
4.88000000e2, 4.38402500, 5.87120000e-2
4.90000000e2, 4.37080000, 5.73000000e-2
4.92000000e2, 4.35924600, 5.57460000e-2
4.94000000e2, 4.34826300, 5.41550000e-2
4.96000000e2, 4.33769700, 5.25410000e-2
4.98000000e2, 4.32739400, 5.09180000e-2
5.00000000e2, 4.31720000, 4.93000000e-2
5.02000000e2, 4.30610500, 4.76480000e-2
5.04000000e2, 4.29502600, 4.60440000e-2
5.06000000e2, 4.28402600, 4.45160000e-2
5.08000000e2, 4.27316300, 4.30920000e-2
5.10000000e2, 4.26250000, 4.18000000e-2
5.12000000e2, 4.25237500, 4.09720000e-2
5.14000000e2, 4.24250100, 4.02560000e-2
5.16000000e2, 4.23287100, 3.96040000e-2
5.18000000e2, 4.22347300, 3.89680000e-2
5.20000000e2, 4.21430000, 3.83000000e-2
5.22000000e2, 4.20544900, 3.71870000e-2
5.24000000e2, 4.19677800, 3.60380000e-2
5.26000000e2, 4.18825300, 3.48940000e-2
5.28000000e2, 4.17983900, 3.38010000e-2
5.30000000e2, 4.17150000, 3.28000000e-2
5.32000000e2, 4.16285600, 3.22070000e-2
5.34000000e2, 4.15430200, 3.17260000e-2
5.36000000e2, 4.14589100, 3.13300000e-2
5.38000000e2, 4.13767300, 3.09970000e-2
5.40000000e2, 4.12970000, 3.07000000e-2
5.42000000e2, 4.12241100, 3.02650000e-2
5.44000000e2, 4.11537100, 2.98540000e-2
5.46000000e2, 4.10853700, 2.94820000e-2
5.48000000e2, 4.10186200, 2.91590000e-2
5.50000000e2, 4.09530000, 2.89000000e-2
5.52000000e2, 4.08843900, 2.89890000e-2
5.54000000e2, 4.08169100, 2.90980000e-2
5.56000000e2, 4.07510500, 2.91740000e-2
5.58000000e2, 4.06872600, 2.91590000e-2
5.60000000e2, 4.06260000, 2.90000000e-2
5.62000000e2, 4.05755500, 2.81930000e-2
5.64000000e2, 4.05266100, 2.72420000e-2
5.66000000e2, 4.04777100, 2.62060000e-2
5.68000000e2, 4.04273300, 2.51390000e-2
5.70000000e2, 4.03740000, 2.41000000e-2
5.72000000e2, 4.03022100, 2.33720000e-2
5.74000000e2, 4.02280000, 2.27280000e-2
5.76000000e2, 4.01533900, 2.21680000e-2
5.78000000e2, 4.00803800, 2.16920000e-2
5.80000000e2, 4.00110000, 2.13000000e-2
5.82000000e2, 3.99597700, 2.10270000e-2
5.84000000e2, 3.99130600, 2.08300000e-2
5.86000000e2, 3.98697800, 2.06980000e-2
5.88000000e2, 3.98287900, 2.06250000e-2
5.90000000e2, 3.97890000, 2.06000000e-2
5.92000000e2, 3.97447400, 2.07500000e-2
5.94000000e2, 3.97005900, 2.08970000e-2
5.96000000e2, 3.96565700, 2.09990000e-2
5.98000000e2, 3.96127000, 2.10140000e-2
6.00000000e2, 3.95690000, 2.09000000e-2
6.02000000e2, 3.95245800, 2.01940000e-2
6.04000000e2, 3.94806100, 1.93790000e-2
6.06000000e2, 3.94373500, 1.85170000e-2
6.08000000e2, 3.93950700, 1.76700000e-2
6.10000000e2, 3.93540000, 1.69000000e-2
6.12000000e2, 3.93189600, 1.66900000e-2
6.14000000e2, 3.92845200, 1.65770000e-2
6.16000000e2, 3.92498000, 1.65190000e-2
6.18000000e2, 3.92139200, 1.64740000e-2
6.20000000e2, 3.91760000, 1.64000000e-2
6.22000000e2, 3.91273800, 1.59560000e-2
6.24000000e2, 3.90769100, 1.54720000e-2
6.26000000e2, 3.90256500, 1.49800000e-2
6.28000000e2, 3.89746500, 1.45120000e-2
6.30000000e2, 3.89250000, 1.41000000e-2
6.32000000e2, 3.88826400, 1.39680000e-2
6.34000000e2, 3.88425200, 1.39080000e-2
6.36000000e2, 3.88044800, 1.39040000e-2
6.38000000e2, 3.87683600, 1.39400000e-2
6.40000000e2, 3.87340000, 1.40000000e-2
6.42000000e2, 3.87029700, 1.41060000e-2
6.44000000e2, 3.86729400, 1.41950000e-2
6.46000000e2, 3.86433400, 1.42410000e-2
6.48000000e2, 3.86135500, 1.42180000e-2
6.50000000e2, 3.85830000, 1.41000000e-2
6.52000000e2, 3.85445600, 1.35070000e-2
6.54000000e2, 3.85058000, 1.28580000e-2
6.56000000e2, 3.84677600, 1.22140000e-2
6.58000000e2, 3.84314800, 1.16410000e-2
6.60000000e2, 3.83980000, 1.12000000e-2
6.62000000e2, 3.83780900, 1.14510000e-2
6.64000000e2, 3.83606200, 1.18380000e-2
6.66000000e2, 3.83442100, 1.22980000e-2
6.68000000e2, 3.83274700, 1.27730000e-2
6.70000000e2, 3.83090000, 1.32000000e-2
6.72000000e2, 3.82786100, 1.31610000e-2
6.74000000e2, 3.82459000, 1.30420000e-2
6.76000000e2, 3.82117000, 1.28740000e-2
6.78000000e2, 3.81767900, 1.26830000e-2
6.80000000e2, 3.81420000, 1.25000000e-2
6.82000000e2, 3.81111000, 1.25480000e-2
6.84000000e2, 3.80811900, 1.26120000e-2
6.86000000e2, 3.80523300, 1.26720000e-2
6.88000000e2, 3.80245700, 1.27080000e-2
6.90000000e2, 3.79980000, 1.27000000e-2
6.92000000e2, 3.79740700, 1.25160000e-2
6.94000000e2, 3.79511000, 1.22760000e-2
6.96000000e2, 3.79287800, 1.19880000e-2
6.98000000e2, 3.79068500, 1.16600000e-2
7.00000000e2, 3.78850000, 1.13000000e-2
7.02000000e2, 3.78632400, 1.07270000e-2
7.04000000e2, 3.78409200, 1.01860000e-2
7.06000000e2, 3.78176800, 9.73000000e-3
7.08000000e2, 3.77931600, 9.41700000e-3
7.10000000e2, 3.77670000, 9.30000000e-3
7.12000000e2, 3.77326000, 1.01620000e-2
7.14000000e2, 3.76974000, 1.11490000e-2
7.16000000e2, 3.76626000, 1.21350000e-2
7.18000000e2, 3.76294000, 1.29940000e-2
7.20000000e2, 3.75990000, 1.36000000e-2
7.22000000e2, 3.75812100, 1.27600000e-2
7.24000000e2, 3.75664600, 1.16800000e-2
7.26000000e2, 3.75538200, 1.05000000e-2
7.28000000e2, 3.75423100, 9.36000000e-3
7.30000000e2, 3.75310000, 8.40000000e-3
7.32000000e2, 3.75150900, 8.77800000e-3
7.34000000e2, 3.74984200, 9.36100000e-3
7.36000000e2, 3.74810200, 1.00350000e-2
7.38000000e2, 3.74628700, 1.06860000e-2
7.40000000e2, 3.74440000, 1.12000000e-2
7.42000000e2, 3.74234800, 1.06360000e-2
7.44000000e2, 3.74024800, 9.91200000e-3
7.46000000e2, 3.73812400, 9.12000000e-3
7.48000000e2, 3.73600000, 8.35200000e-3
7.50000000e2, 3.73390000, 7.70000000e-3
7.52000000e2, 3.73196600, 7.84500000e-3
7.54000000e2, 3.73007500, 8.14200000e-3
7.56000000e2, 3.72822100, 8.53800000e-3
7.58000000e2, 3.72639800, 8.97500000e-3
7.60000000e2, 3.72460000, 9.40000000e-3
7.62000000e2, 3.72289300, 9.47800000e-3
7.64000000e2, 3.72118300, 9.50300000e-3
7.66000000e2, 3.71944600, 9.48900000e-3
7.68000000e2, 3.71765900, 9.45000000e-3
7.70000000e2, 3.71580000, 9.40000000e-3
7.72000000e2, 3.71339400, 9.53400000e-3
7.74000000e2, 3.71098100, 9.64100000e-3
7.76000000e2, 3.70865100, 9.69100000e-3
7.78000000e2, 3.70649500, 9.65400000e-3
7.80000000e2, 3.70460000, 9.50000000e-3
7.82000000e2, 3.70379700, 8.90000000e-3
7.84000000e2, 3.70325000, 8.19600000e-3
7.86000000e2, 3.70286600, 7.43200000e-3
7.88000000e2, 3.70254700, 6.65200000e-3
7.90000000e2, 3.70220000, 5.90000000e-3
7.92000000e2, 3.70128400, 5.44100000e-3
7.94000000e2, 3.70026000, 5.04200000e-3
7.96000000e2, 3.69914400, 4.69400000e-3
7.98000000e2, 3.69795200, 4.38300000e-3
8.00000000e2, 3.69670000, 4.10000000e-3
8.02000000e2, 3.69544900, 3.75300000e-3
8.04000000e2, 3.69415900, 3.43000000e-3
8.06000000e2, 3.69283400, 3.14200000e-3
8.08000000e2, 3.69147900, 2.89500000e-3
8.10000000e2, 3.69010000, 2.70000000e-3
8.12000000e2, 3.68803800, 2.68000000e-3
8.14000000e2, 3.68612700, 2.70000000e-3
8.16000000e2, 3.68453700, 2.74000000e-3
8.18000000e2, 3.68343800, 2.78000000e-3
8.20000000e2, 3.68300000, 2.80000000e-3
8.22000000e2, 3.68601200, 2.60700000e-3
8.24000000e2, 3.68937200, 2.39800000e-3
8.26000000e2, 3.69259600, 2.19400000e-3
8.28000000e2, 3.69520000, 2.02100000e-3
8.30000000e2, 3.69670000, 1.90000000e-3
8.32000000e2, 3.69661200, 1.85500000e-3
8.34000000e2, 3.69445200, 1.91000000e-3
8.36000000e2, 3.68973600, 2.08600000e-3
8.38000000e2, 3.68198000, 2.40900000e-3
8.40000000e2, 3.67070000, 2.90000000e-3
