wavelength (nm), n, k
2.40000000e2, 1.63780000, 3.23300000
2.42000000e2, 1.63740000, 3.25130000
2.44000000e2, 1.64050000, 3.25980000
2.46000000e2, 1.65770000, 3.34800000
2.48000000e2, 1.67610000, 3.40500000
2.50000000e2, 1.68750000, 3.45680000
2.52000000e2, 1.71720000, 3.51030000
2.54000000e2, 1.76780000, 3.58520000
2.56000000e2, 1.78250000, 3.64620000
2.58000000e2, 1.82590000, 3.71900000
2.60000000e2, 1.87050000, 3.78120000
2.62000000e2, 1.90530000, 3.86550000
2.64000000e2, 1.95440000, 3.94330000
2.66000000e2, 2.01890000, 4.02050000
2.68000000e2, 2.08800000, 4.11140000
2.70000000e2, 2.15470000, 4.19830000
2.72000000e2, 2.24810000, 4.29810000
2.74000000e2, 2.35630000, 4.39130000
2.76000000e2, 2.47810000, 4.48120000
2.78000000e2, 2.60830000, 4.56970000
2.80000000e2, 2.78190000, 4.65750000
2.82000000e2, 2.97510000, 4.73010000
2.84000000e2, 3.18690000, 4.75490000
2.86000000e2, 3.42590000, 4.75100000
2.88000000e2, 3.67340000, 4.68890000
2.90000000e2, 3.87990000, 4.58520000
2.92000000e2, 4.04450000, 4.45260000
2.94000000e2, 4.17080000, 4.30960000
2.96000000e2, 4.28050000, 4.15860000
2.98000000e2, 4.33260000, 4.02110000
3.00000000e2, 4.38420000, 3.89700000
3.02000000e2, 4.42391300, 3.77411900
3.04000000e2, 4.44750000, 3.67000000
3.06000000e2, 4.45976300, 3.58078100
3.08000000e2, 4.46550000, 3.50260000
3.10000000e2, 4.47136300, 3.42985000
3.12000000e2, 4.47660000, 3.36390000
3.14000000e2, 4.48293100, 3.30479400
3.16000000e2, 4.48960000, 3.25090000
3.18000000e2, 4.49616900, 3.20066300
3.20000000e2, 4.50340000, 3.15390000
3.22000000e2, 4.51256800, 3.10981200
3.24000000e2, 4.52170000, 3.06870000
3.26000000e2, 4.52863100, 3.03085000
3.28000000e2, 4.53520000, 2.99550000
3.30000000e2, 4.54251300, 2.96178100
3.32000000e2, 4.55060000, 2.93030000
3.34000000e2, 4.56065000, 2.90140000
3.36000000e2, 4.57030000, 2.87500000
3.38000000e2, 4.57613800, 2.85190600
3.40000000e2, 4.58250000, 2.82980000
3.42000000e2, 4.59415600, 2.80567500
3.44000000e2, 4.60640000, 2.78240000
3.46000000e2, 4.61449400, 2.76269400
3.48000000e2, 4.62330000, 2.74400000
3.50000000e2, 4.63711900, 2.72420600
3.52000000e2, 4.65290000, 2.70470000
3.54000000e2, 4.66910600, 2.68608100
3.56000000e2, 4.68550000, 2.66860000
3.58000000e2, 4.70070000, 2.65311200
3.60000000e2, 4.71660000, 2.63840000
3.62000000e2, 4.73480000, 2.62369400
3.64000000e2, 4.75480000, 2.60850000
3.66000000e2, 4.77699400, 2.59221200
3.68000000e2, 4.80030000, 2.57440000
3.70000000e2, 4.82367500, 2.55425000
3.72000000e2, 4.84740000, 2.53230000
3.74000000e2, 4.87175700, 2.50808700
3.76000000e2, 4.89570000, 2.48380000
3.78000000e2, 4.91783100, 2.46270600
3.80000000e2, 4.93950000, 2.44110000
3.82000000e2, 4.96218100, 2.41541200
3.84000000e2, 4.98410000, 2.38850000
3.86000000e2, 5.00363100, 2.36228700
3.88000000e2, 5.02180000, 2.33600000
3.90000000e2, 5.03900000, 2.30914400
3.92000000e2, 5.05550000, 2.28280000
3.94000000e2, 5.07142500, 2.25776200
3.96000000e2, 5.08760000, 2.23440000
3.98000000e2, 5.10511900, 2.21363100
4.00000000e2, 5.12330000, 2.19460000
4.02000000e2, 5.14121200, 2.17711300
4.04000000e2, 5.16070000, 2.16010000
4.06000000e2, 5.18362500, 2.14241300
4.08000000e2, 5.20900000, 2.12410000
4.10000000e2, 5.23656800, 2.10492500
4.12000000e2, 5.26600000, 2.08460000
4.14000000e2, 5.29675600, 2.06313800
4.16000000e2, 5.32920000, 2.03940000
4.18000000e2, 5.36346900, 2.01253700
4.20000000e2, 5.39970000, 1.98170000
4.22000000e2, 5.43577300, 1.94639100
4.24000000e2, 5.47127200, 1.90777800
4.26000000e2, 5.50581500, 1.86599800
4.28000000e2, 5.53901800, 1.82119300
4.30000000e2, 5.57050000, 1.77350000
4.32000000e2, 5.59987800, 1.72305900
4.34000000e2, 5.62676900, 1.67001000
4.36000000e2, 5.65079100, 1.61449100
4.38000000e2, 5.67156300, 1.55664100
4.40000000e2, 5.68870000, 1.49660000
4.42000000e2, 5.70042400, 1.43245600
4.44000000e2, 5.70809800, 1.36691200
4.46000000e2, 5.71169000, 1.30061900
4.48000000e2, 5.71116900, 1.23423100
4.50000000e2, 5.70650000, 1.16840000
4.52000000e2, 5.69616000, 1.10491800
4.54000000e2, 5.68198000, 1.04301100
4.56000000e2, 5.66430000, 9.83045000e-1
4.58000000e2, 5.64346000, 9.25386000e-1
4.60000000e2, 5.61980000, 8.70400000e-1
4.62000000e2, 5.59330500, 8.20074000e-1
4.64000000e2, 5.56475900, 7.72749000e-1
4.66000000e2, 5.53459000, 7.28388000e-1
4.68000000e2, 5.50322700, 6.86951000e-1
4.70000000e2, 5.47110000, 6.48400000e-1
4.72000000e2, 5.43962600, 6.13203000e-1
4.74000000e2, 5.40799700, 5.80689000e-1
4.76000000e2, 5.37639500, 5.50694000e-1
4.78000000e2, 5.34500300, 5.23053000e-1
4.80000000e2, 5.31400000, 4.97600000e-1
4.82000000e2, 5.28401400, 4.74328000e-1
4.84000000e2, 5.25467200, 4.52876000e-1
4.86000000e2, 5.22604100, 4.33040000e-1
4.88000000e2, 5.19819300, 4.14616000e-1
4.90000000e2, 5.17120000, 3.97400000e-1
4.92000000e2, 5.14554900, 3.80570000e-1
4.94000000e2, 5.12078900, 3.64695000e-1
4.96000000e2, 5.09688300, 3.49725000e-1
4.98000000e2, 5.07379800, 3.35610000e-1
5.00000000e2, 5.05150000, 3.22300000e-1
5.02000000e2, 5.03021600, 3.09609000e-1
5.04000000e2, 5.00958400, 2.97658000e-1
5.06000000e2, 4.98950400, 2.86434000e-1
5.08000000e2, 4.96987600, 2.75919000e-1
5.10000000e2, 4.95060000, 2.66100000e-1
5.12000000e2, 4.93089100, 2.57143000e-1
5.14000000e2, 4.91150600, 2.48806000e-1
5.16000000e2, 4.89251500, 2.41026000e-1
5.18000000e2, 4.87398900, 2.33745000e-1
5.20000000e2, 4.85600000, 2.26900000e-1
5.22000000e2, 4.83924000, 2.20306000e-1
5.24000000e2, 4.82300400, 2.14059000e-1
5.26000000e2, 4.80720800, 2.08129000e-1
5.28000000e2, 4.79176800, 2.02486000e-1
5.30000000e2, 4.77660000, 1.97100000e-1
5.32000000e2, 4.76093800, 1.91882000e-1
5.34000000e2, 4.74555100, 1.86877000e-1
5.36000000e2, 4.73052500, 1.82071000e-1
5.38000000e2, 4.71594600, 1.77450000e-1
5.40000000e2, 4.70190000, 1.73000000e-1
5.42000000e2, 4.68928100, 1.68648000e-1
5.44000000e2, 4.67716600, 1.64452000e-1
5.46000000e2, 4.66544200, 1.60412000e-1
5.48000000e2, 4.65399200, 1.56528000e-1
5.50000000e2, 4.64270000, 1.52800000e-1
5.52000000e2, 4.63071100, 1.49292000e-1
5.54000000e2, 4.61883500, 1.45924000e-1
5.56000000e2, 4.60714500, 1.42680000e-1
5.58000000e2, 4.59570900, 1.39544000e-1
5.60000000e2, 4.58460000, 1.36500000e-1
5.62000000e2, 4.57461300, 1.33599000e-1
5.64000000e2, 4.56491000, 1.30742000e-1
5.66000000e2, 4.55538200, 1.27894000e-1
5.68000000e2, 4.54591500, 1.25025000e-1
5.70000000e2, 4.53640000, 1.22100000e-1
5.72000000e2, 4.52586400, 1.18687000e-1
5.74000000e2, 4.51527200, 1.15254000e-1
5.76000000e2, 4.50472800, 1.11866000e-1
5.78000000e2, 4.49433600, 1.08593000e-1
5.80000000e2, 4.48420000, 1.05500000e-1
5.82000000e2, 4.47502200, 1.03142000e-1
5.84000000e2, 4.46615900, 1.00977000e-1
5.86000000e2, 4.45756500, 9.89510000e-2
5.88000000e2, 4.44919300, 9.70100000e-2
5.90000000e2, 4.44100000, 9.51000000e-2
5.92000000e2, 4.43285500, 9.27460000e-2
5.94000000e2, 4.42481800, 9.04190000e-2
5.96000000e2, 4.41686200, 8.81690000e-2
5.98000000e2, 4.40896500, 8.60460000e-2
6.00000000e2, 4.40110000, 8.41000000e-2
6.02000000e2, 4.39291700, 8.28020000e-2
6.04000000e2, 4.38479900, 8.16770000e-2
6.06000000e2, 4.37680100, 8.06710000e-2
6.08000000e2, 4.36898300, 7.97300000e-2
6.10000000e2, 4.36140000, 7.88000000e-2
6.12000000e2, 4.35480300, 7.75280000e-2
6.14000000e2, 4.34838200, 7.62320000e-2
6.16000000e2, 4.34201900, 7.49320000e-2
6.18000000e2, 4.33559700, 7.36480000e-2
6.20000000e2, 4.32900000, 7.24000000e-2
6.22000000e2, 4.32097200, 7.12370000e-2
6.24000000e2, 4.31282000, 7.01420000e-2
6.26000000e2, 4.30471200, 6.91300000e-2
6.28000000e2, 4.29681600, 6.82110000e-2
6.30000000e2, 4.28930000, 6.74000000e-2
6.32000000e2, 4.28326300, 6.69140000e-2
6.34000000e2, 4.27770900, 6.65090000e-2
6.36000000e2, 4.27257400, 6.61470000e-2
6.38000000e2, 4.26779300, 6.57900000e-2
6.40000000e2, 4.26330000, 6.54000000e-2
6.42000000e2, 4.25912700, 6.47900000e-2
6.44000000e2, 4.25508900, 6.41070000e-2
6.46000000e2, 4.25109800, 6.33490000e-2
6.48000000e2, 4.24706500, 6.25140000e-2
6.50000000e2, 4.24290000, 6.16000000e-2
6.52000000e2, 4.23778900, 6.06420000e-2
6.54000000e2, 4.23255100, 5.95930000e-2
6.56000000e2, 4.22727800, 5.84430000e-2
6.58000000e2, 4.22206400, 5.71820000e-2
6.60000000e2, 4.21700000, 5.58000000e-2
6.62000000e2, 4.21297500, 5.38730000e-2
6.64000000e2, 4.20908700, 5.19060000e-2
6.66000000e2, 4.20523300, 4.99940000e-2
6.68000000e2, 4.20130500, 4.82270000e-2
6.70000000e2, 4.19720000, 4.67000000e-2
6.72000000e2, 4.19214500, 4.61700000e-2
6.74000000e2, 4.18686600, 4.58990000e-2
6.76000000e2, 4.18142600, 4.58130000e-2
6.78000000e2, 4.17588300, 4.58380000e-2
6.80000000e2, 4.17030000, 4.59000000e-2
6.82000000e2, 4.16467000, 4.55580000e-2
6.84000000e2, 4.15913700, 4.51990000e-2
6.86000000e2, 4.15377900, 4.48410000e-2
6.88000000e2, 4.14867400, 4.45020000e-2
6.90000000e2, 4.14390000, 4.42000000e-2
6.92000000e2, 4.14011000, 4.41720000e-2
6.94000000e2, 4.13666100, 4.41640000e-2
6.96000000e2, 4.13348700, 4.41400000e-2
6.98000000e2, 4.13052200, 4.40640000e-2
7.00000000e2, 4.12770000, 4.39000000e-2
7.02000000e2, 4.12495000, 4.32820000e-2
7.04000000e2, 4.12221100, 4.25870000e-2
7.06000000e2, 4.11941700, 4.18610000e-2
7.08000000e2, 4.11650100, 4.11500000e-2
7.10000000e2, 4.11340000, 4.05000000e-2
7.12000000e2, 4.10931300, 4.02750000e-2
7.14000000e2, 4.10509300, 4.01260000e-2
7.16000000e2, 4.10085500, 4.00180000e-2
7.18000000e2, 4.09671900, 3.99210000e-2
7.20000000e2, 4.09280000, 3.98000000e-2
7.22000000e2, 4.09010700, 3.94950000e-2
7.24000000e2, 4.08764600, 3.91340000e-2
7.26000000e2, 4.08531000, 3.87140000e-2
7.28000000e2, 4.08299700, 3.82370000e-2
7.30000000e2, 4.08060000, 3.77000000e-2
7.32000000e2, 4.07733000, 3.70140000e-2
7.34000000e2, 4.07393900, 3.62890000e-2
7.36000000e2, 4.07049300, 3.55470000e-2
7.38000000e2, 4.06705800, 3.48100000e-2
7.40000000e2, 4.06370000, 3.41000000e-2
7.42000000e2, 4.06085100, 3.35780000e-2
7.44000000e2, 4.05812200, 3.30910000e-2
7.46000000e2, 4.05548600, 3.26250000e-2
7.48000000e2, 4.05292000, 3.21660000e-2
7.50000000e2, 4.05040000, 3.17000000e-2
7.52000000e2, 4.04768800, 3.11090000e-2
7.54000000e2, 4.04502400, 3.05100000e-2
7.56000000e2, 4.04243600, 2.99180000e-2
7.58000000e2, 4.03995200, 2.93430000e-2
7.60000000e2, 4.03760000, 2.88000000e-2
7.62000000e2, 4.03592600, 2.83780000e-2
7.64000000e2, 4.03431100, 2.79930000e-2
7.66000000e2, 4.03265300, 2.76390000e-2
7.68000000e2, 4.03084900, 2.73100000e-2
7.70000000e2, 4.02880000, 2.70000000e-2
7.72000000e2, 4.02545800, 2.67430000e-2
7.74000000e2, 4.02190300, 2.64820000e-2
7.76000000e2, 4.01826900, 2.61980000e-2
7.78000000e2, 4.01468900, 2.58770000e-2
7.80000000e2, 4.01130000, 2.55000000e-2
7.82000000e2, 4.00906300, 2.49140000e-2
7.84000000e2, 4.00707800, 2.42730000e-2
7.86000000e2, 4.00527000, 2.35950000e-2
7.88000000e2, 4.00356900, 2.28980000e-2
7.90000000e2, 4.00190000, 2.22000000e-2
7.92000000e2, 4.00009900, 2.13640000e-2
7.94000000e2, 3.99820700, 2.06000000e-2
7.96000000e2, 3.99617700, 1.99640000e-2
7.98000000e2, 3.99395800, 1.95120000e-2
8.00000000e2, 3.99150000, 1.93000000e-2
8.02000000e2, 3.98789400, 2.00210000e-2
8.04000000e2, 3.98416500, 2.09340000e-2
8.06000000e2, 3.98047900, 2.19380000e-2
8.08000000e2, 3.97700200, 2.29270000e-2
8.10000000e2, 3.97390000, 2.38000000e-2
8.12000000e2, 3.97309100, 2.40140000e-2
8.14000000e2, 3.97255000, 2.40150000e-2
8.16000000e2, 3.97200300, 2.38090000e-2
8.18000000e2, 3.97117700, 2.34020000e-2
8.20000000e2, 3.96980000, 2.28000000e-2
8.22000000e2, 3.96538800, 2.13060000e-2
8.24000000e2, 3.96043200, 1.98070000e-2
8.26000000e2, 3.95521200, 1.84850000e-2
8.28000000e2, 3.95000800, 1.75220000e-2
8.30000000e2, 3.94510000, 1.71000000e-2
8.32000000e2, 3.94076800, 1.74020000e-2
8.34000000e2, 3.93729200, 1.86110000e-2
8.36000000e2, 3.93495200, 2.09090000e-2
8.38000000e2, 3.93402800, 2.44780000e-2
8.40000000e2, 3.93480000, 2.95000000e-2
